{
    "resourceType": "Bundle",
    "id": "8",
    "meta": {
        "versionId": "1",
        "lastUpdated": "2021-07-03T22:40:27.487+00:00",
        "profile": [
            "http://hl7.org/fhir/STU3/StructureDefinition/Bundle"
        ]
    },
    "type": "message",
    "entry": [
        {
            "fullUrl": "urn:uuid:85c8a1c5-a8a1-41c9-bb99-20956fa66218",
            "resource": {
                "timestamp": "2015-07-14T11:15:33+10:00",
                "resourceType": "MessageHeader",
                "meta": {
                    "lastUpdated": "2017-11-01T15:00:33+00:00",
                    "profile": [
                        "https://fhir.nhs.uk/STU3/StructureDefinition/Event-MessageHeader-1"
                    ]
                },
                "extension": [
                    {
                        "url": "https://fhir.nhs.uk/STU3/StructureDefinition/Extension-RoutingDemographics-1",
                        "extension": [
                            {
                                "url": "nhsNumber",
                                "valueIdentifier": {
                                    "system": "https://fhir.nhs.uk/Id/nhs-number",
                                    "value": "9912003888"
                                }
                            },
                            {
                                "url": "name",
                                "valueHumanName": {
                                    "use": "official",
                                    "family": "DAWKINS",
                                    "given": [
                                        "Jack"
                                    ]
                                }
                            },
                            {
                                "url": "birthDateTime",
                                "valueDateTime": "2017-10-02T12:00:00+00:00"
                            }
                        ]
                    },
                    {
                        "url": "https://fhir.nhs.uk/STU3/StructureDefinition/Extension-MessageEventType-1",
                        "valueCodeableConcept": {
                            "coding": [
                                {
                                    "system": "https://fhir.nhs.uk/STU3/CodeSystem/MessageEventType-1",
                                    "code": "new",
                                    "display": "New event message"
                                }
                            ]
                        }
                    }
                ],
                "source": {
                    "contact": {
                        "system": "phone",
                        "value": "0191 1231234"
                    },
                    "endpoint": "foo.com/300000000161"
                },
                "responsible": {
                    "reference": "urn:uuid:3ff6d789-af64-4d9c-aa1d-0087d29e9e1c",
                    "display": "SILVERDALE FAMILY PRACTICE"
                },
                "focus": [
                    {
                        "reference": "urn:uuid:c037a0cb-0c77-4976-83a1-a5d2703e6aa3"
                    },
                    {
                        "reference": "urn:uuid:bb86ac04-c85c-11eb-b8bc-0242ac130003"
                    }
                ]
            }
        },
        {
            "fullUrl": "urn:uuid:c037a0cb-0c77-4976-83a1-a5d2703e6aa3",
            "resource": {
                "resourceType": "DocumentReference",
                "meta": {
                    "profile": [
                        "https://fhir.nhs.uk/STU3/StructureDefinition/NRL-DocumentReference-1"
                    ]
                },
                "status": "current",
                "type": {
                    "coding": [
                        {
                            "system": "http://snomed.info/sct",
                            "code": "33879002",
                            "display": "Immunisation"
                        }
                    ]
                },
                "subject": {
                    "reference": "https://demographics.spineservices.nhs.uk/STU3/Patient/9912003888"
                },
                "author": [
                    {
                        "reference": "https://directory.spineservices.nhs.uk/STU3/Organization/A83627"
                    }
                ],
                "custodian": {
                    "reference": "https://directory.spineservices.nhs.uk/STU3/Organization/A83627"
                },
                "content": [
                    {
                        "extension": [
                            {
                                "url": "https://fhir.nhs.uk/STU3/StructureDefinition/Extension-NRL-ContentStability-1",
                                "valueCodeableConcept": {
                                    "coding": [
                                        {
                                            "system": "https://fhir.nhs.uk/STU3/CodeSystem/NRL-ContentStability-1",
                                            "code": "dynamic",
                                            "display": "Dynamic"
                                        }
                                    ]
                                }
                            }
                        ],
                        "attachment": {
                            "contentType": "application/fhir+xml",
                            "url": "https://p1.nhs.uk/Patient/12345/Immunization/12345",
                            "creation": "2016-03-08T15:26:00+01:00"
                        },
                        "format": {
                            "system": "https://fhir.nhs.uk/STU3/CodeSystem/NRL-FormatCode-1",
                            "code": "urn:nhs-ic:fhir:stu3:careconnect-immunization-fhir-stu3",
                            "display": "CareConnect Immunization FHIR STU3"
                        }
                    }
                ],
                "context": {
                    "period": {
                        "start": "2016-03-07T13:34:00+01:00"
                    },
                    "practiceSetting": {
                        "coding": [
                            {
                                "system": "http://snomed.info/sct",
                                "code": "788007007",
                                "display": "General practice service"
                            }
                        ]
                    }
                }
            }
        },
        {
            "fullUrl": "urn:uuid:bb86ac04-c85c-11eb-b8bc-0242ac130003",
            "resource": {
                "resourceType": "DocumentReference",
                "meta": {
                    "profile": [
                        "https://fhir.nhs.uk/STU3/StructureDefinition/NRL-DocumentReference-1"
                    ]
                },
                "status": "current",
                "type": {
                    "coding": [
                        {
                            "system": "http://snomed.info/sct",
                            "code": "1102181000000102",
                            "display": "Immunisations"
                        }
                    ]
                },
                "subject": {
                    "reference": "https://demographics.spineservices.nhs.uk/STU3/Patient/9912003888"
                },
                "author": [
                    {
                        "reference": "https://directory.spineservices.nhs.uk/STU3/Organization/A83627"
                    }
                ],
                "custodian": {
                    "reference": "https://directory.spineservices.nhs.uk/STU3/Organization/A83627"
                },
                "content": [
                    {
                        "extension": [
                            {
                                "url": "https://fhir.nhs.uk/STU3/StructureDefinition/Extension-NRL-ContentStability-1",
                                "valueCodeableConcept": {
                                    "coding": [
                                        {
                                            "system": "https://fhir.nhs.uk/STU3/CodeSystem/NRL-ContentStability-1",
                                            "code": "dynamic",
                                            "display": "Dynamic"
                                        }
                                    ]
                                }
                            }
                        ],
                        "attachment": {
                            "contentType": "application/fhir+xml",
                            "url": "https://p1.nhs.uk/Patient/12345/Immunization",
                            "creation": "2016-03-08T15:26:00+01:00"
                        },
                        "format": {
                            "system": "https://fhir.nhs.uk/STU3/CodeSystem/NRL-FormatCode-1",
                            "code": "urn:nhs-ic:fhir:stu3:careconnect-immunization-list-fhir-stu3",
                            "display": "CareConnect Immunization List FHIR STU3"
                        }
                    }
                ],
                "context": {
                    "period": {
                        "start": "2016-03-07T13:34:00+01:00"
                    },
                    "practiceSetting": {
                        "coding": [
                            {
                                "system": "http://snomed.info/sct",
                                "code": "788007007",
                                "display": "General practice service"
                            }
                        ]
                    }
                }
            }
        },
        {
            "fullUrl": "urn:uuid:3ff6d789-af64-4d9c-aa1d-0087d29e9e1c",
            "resource": {
                "resourceType": "Organization",
                "meta": {
                    "profile": [
                        "https://fhir.hl7.org.uk/STU3/StructureDefinition/CareConnect-Organization-1"
                    ]
                },
                "identifier": [
                    {
                        "system": "https://fhir.nhs.uk/Id/ods-organization-code",
                        "value": "A83627"
                    }
                ],
                "name": "SILVERDALE FAMILY PRACTICE",
                "address": [
                    {
                        "line": [
                            "FRONT STREET",
                            "SOUTH HETTON"
                        ],
                        "city": "DURHAM",
                        "district": "COUNTY DURHAM",
                        "postalCode": "DH6 2TH"
                    }
                ]
            }
        }
    ]
}